Data from USB2H080721_08-42-38-487.txt Node
Date: Wed May 10 08:42:38 BRT 2023
User: Quark
Spectrometer: USB2+H08072
Trigger mode: 4
Integration Time (sec): 1,000000E-2
Scans to average: 1
Electric dark correction enabled: true
Nonlinearity correction enabled: false
Boxcar width: 0
XAxis mode: Wavelengths
Number of Pixels in Spectrum: 2048
>>>>>Begin Spectral Data<<<<<
338,582	133,12
338,96	133,12
339,338	133,12
339,716	60,56
340,094	30,13
340,472	-12
340,85	30,13
341,228	27,79
341,606	9,07
341,984	58,22
342,362	-28,38
342,74	-61,15
343,117	-19,02
343,495	-44,76
343,873	-77,53
344,25	-7,31
344,628	18,43
345,005	27,79
345,383	-21,36
345,76	30,13
346,138	109,71
346,515	-51,78
346,893	-30,72
347,27	6,73
347,647	37,16
348,024	34,82
348,402	-21,36
348,779	25,45
349,156	114,39
349,533	55,88
349,91	88,65
350,287	72,26
350,664	20,77
351,041	116,73
351,417	123,76
351,794	86,31
352,171	62,9
352,548	90,99
352,925	161,2
353,301	165,89
353,678	154,18
354,054	137,8
354,431	170,57
354,807	93,33
355,184	116,73
355,56	128,44
355,937	165,89
356,313	128,44
356,689	165,89
357,066	137,8
357,442	182,27
357,818	200,99
358,194	105,03
358,57	114,39
358,946	90,99
359,322	161,2
359,698	198,65
360,074	210,36
360,45	144,82
360,826	107,37
361,202	156,52
361,577	233,76
361,953	156,52
362,329	107,37
362,705	156,52
363,08	128,44
363,456	191,63
363,831	149,5
364,207	121,42
364,582	100,35
364,958	191,63
365,333	168,23
365,708	109,71
366,084	112,05
366,459	147,16
366,834	102,69
367,209	60,56
367,584	90,99
367,959	193,97
368,334	102,69
368,709	100,35
369,084	86,31
369,459	100,35
369,834	67,58
370,209	123,76
370,584	212,7
370,959	79,29
371,333	161,2
371,708	112,05
372,083	114,39
372,457	140,14
372,832	123,76
373,206	151,84
373,581	112,05
373,955	203,33
374,33	102,69
374,704	93,33
375,078	93,33
375,453	179,93
375,827	154,18
376,201	142,48
376,575	140,14
376,949	126,1
377,323	114,39
377,697	69,92
378,071	72,26
378,445	147,16
378,819	156,52
379,193	198,65
379,567	95,67
379,941	123,76
380,315	123,76
380,688	208,02
381,062	130,78
381,436	184,61
381,809	102,69
382,183	126,1
382,556	116,73
382,93	205,67
383,303	210,36
383,676	135,46
384,05	105,03
384,423	130,78
384,796	88,65
385,17	161,2
385,543	179,93
385,916	156,52
386,289	158,86
386,662	175,25
387,035	200,99
387,408	128,44
387,781	165,89
388,154	126,1
388,527	102,69
388,9	107,37
389,272	219,72
389,645	88,65
390,018	179,93
390,39	147,16
390,763	165,89
391,136	154,18
391,508	112,05
391,881	151,84
392,253	179,93
392,626	177,59
392,998	179,93
393,37	222,06
393,742	144,82
394,115	128,44
394,487	116,73
394,859	205,67
395,231	121,42
395,603	142,48
395,975	105,03
396,347	158,86
396,719	100,35
397,091	100,35
397,463	123,76
397,835	95,67
398,207	116,73
398,578	88,65
398,95	168,23
399,322	123,76
399,693	121,42
400,065	184,61
400,437	126,1
400,808	90,99
401,18	140,14
401,551	53,54
401,922	81,63
402,294	88,65
402,665	121,42
403,036	142,48
403,408	177,59
403,779	163,54
404,15	88,65
404,521	149,5
404,892	116,73
405,263	128,44
405,634	170,57
406,005	121,42
406,376	175,25
406,747	158,86
407,118	151,84
407,488	161,2
407,859	212,7
408,23	158,86
408,6	86,31
408,971	119,07
409,342	60,56
409,712	128,44
410,083	48,86
410,453	198,65
410,823	121,42
411,194	100,35
411,564	161,2
411,934	135,46
412,305	102,69
412,675	172,91
413,045	72,26
413,415	109,71
413,785	93,33
414,155	109,71
414,525	137,8
414,895	100,35
415,265	93,33
415,635	105,03
416,005	191,63
416,375	135,46
416,744	147,16
417,114	140,14
417,484	105,03
417,853	95,67
418,223	107,37
418,592	102,69
418,962	112,05
419,331	205,67
419,701	184,61
420,07	140,14
420,439	154,18
420,809	119,07
421,178	149,5
421,547	140,14
421,916	119,07
422,285	170,57
422,655	179,93
423,024	158,86
423,393	156,52
423,762	184,61
424,13	114,39
424,499	137,8
424,868	193,97
425,237	83,97
425,606	107,37
425,974	170,57
426,343	144,82
426,712	95,67
427,08	196,31
427,449	158,86
427,817	175,25
428,186	210,36
428,554	109,71
428,923	81,63
429,291	83,97
429,659	86,31
430,028	88,65
430,396	240,78
430,764	123,76
431,132	140,14
431,5	133,12
431,868	170,57
432,236	238,44
432,604	93,33
432,972	172,91
433,34	130,78
433,708	170,57
434,076	193,97
434,443	168,23
434,811	142,48
435,179	172,91
435,546	39,5
435,914	44,18
436,282	121,42
436,649	198,65
437,017	41,84
437,384	130,78
437,751	161,2
438,119	149,5
438,486	154,18
438,853	165,89
439,221	119,07
439,588	144,82
439,955	88,65
440,322	175,25
440,689	170,57
441,056	109,71
441,423	95,67
441,79	58,22
442,157	116,73
442,524	186,95
442,89	161,2
443,257	182,27
443,624	114,39
443,991	158,86
444,357	191,63
444,724	144,82
445,09	163,54
445,457	175,25
445,823	32,47
446,19	126,1
446,556	112,05
446,923	83,97
447,289	215,04
447,655	116,73
448,021	156,52
448,387	123,76
448,754	184,61
449,12	163,54
449,486	55,88
449,852	142,48
450,218	144,82
450,584	119,07
450,95	191,63
451,315	140,14
451,681	98,01
452,047	95,67
452,413	123,76
452,778	172,91
453,144	116,73
453,51	165,89
453,875	88,65
454,241	142,48
454,606	196,31
454,972	86,31
455,337	177,59
455,702	135,46
456,068	105,03
456,433	140,14
456,798	90,99
457,163	144,82
457,528	154,18
457,893	205,67
458,259	172,91
458,624	109,71
458,989	93,33
459,353	172,91
459,718	142,48
460,083	121,42
460,448	128,44
460,813	175,25
461,177	142,48
461,542	191,63
461,907	135,46
462,271	147,16
462,636	86,31
463	95,67
463,365	200,99
463,729	182,27
464,094	154,18
464,458	156,52
464,822	158,86
465,187	226,74
465,551	140,14
465,915	163,54
466,279	149,5
466,643	151,84
467,007	170,57
467,371	93,33
467,735	95,67
468,099	98,01
468,463	154,18
468,827	130,78
469,191	112,05
469,554	95,67
469,918	172,91
470,282	140,14
470,645	119,07
471,009	147,16
471,372	121,42
471,736	151,84
472,099	147,16
472,463	170,57
472,826	144,82
473,189	69,92
473,553	179,93
473,916	93,33
474,279	147,16
474,642	165,89
475,005	177,59
475,369	156,52
475,732	123,76
476,095	144,82
476,458	154,18
476,82	123,76
477,183	102,69
477,546	74,6
477,909	100,35
478,272	121,42
478,634	126,1
478,997	107,37
479,36	149,5
479,722	175,25
480,085	137,8
480,447	126,1
480,81	158,86
481,172	135,46
481,534	128,44
481,897	193,97
482,259	112,05
482,621	137,8
482,983	182,27
483,346	144,82
483,708	149,5
484,07	130,78
484,432	130,78
484,794	119,07
485,156	165,89
485,518	175,25
485,879	184,61
486,241	135,46
486,603	109,71
486,965	114,39
487,326	116,73
487,688	119,07
488,05	79,29
488,411	98,01
488,773	170,57
489,134	161,2
489,496	93,33
489,857	154,18
490,218	191,63
490,58	135,46
490,941	126,1
491,302	179,93
491,663	182,27
492,024	126,1
492,385	215,04
492,746	149,5
493,107	116,73
493,468	119,07
493,829	184,61
494,19	105,03
494,551	212,7
494,912	88,65
495,273	135,46
495,633	135,46
495,994	102,69
496,355	83,97
496,715	142,48
497,076	140,14
497,436	88,65
497,797	114,39
498,157	107,37
498,517	161,2
498,878	133,12
499,238	123,76
499,598	128,44
499,958	107,37
500,319	182,27
500,679	151,84
501,039	123,76
501,399	112,05
501,759	198,65
502,119	158,86
502,479	121,42
502,838	151,84
503,198	135,46
503,558	147,16
503,918	130,78
504,277	191,63
504,637	154,18
504,997	175,25
505,356	165,89
505,716	109,71
506,075	144,82
506,435	186,95
506,794	114,39
507,153	114,39
507,513	112,05
507,872	140,14
508,231	175,25
508,59	93,33
508,949	151,84
509,308	137,8
509,668	205,67
510,027	161,2
510,385	184,61
510,744	196,31
511,103	144,82
511,462	182,27
511,821	210,36
512,18	259,51
512,538	191,63
512,897	74,6
513,256	107,37
513,614	126,1
513,973	182,27
514,331	186,95
514,69	196,31
515,048	112,05
515,406	142,48
515,765	170,57
516,123	179,93
516,481	135,46
516,839	158,86
517,197	119,07
517,556	175,25
517,914	126,1
518,272	98,01
518,63	93,33
518,988	149,5
519,345	215,04
519,703	144,82
520,061	182,27
520,419	123,76
520,777	193,97
521,134	128,44
521,492	196,31
521,849	210,36
522,207	114,39
522,564	135,46
522,922	147,16
523,279	116,73
523,637	100,35
523,994	140,14
524,351	149,5
524,709	119,07
525,066	179,93
525,423	98,01
525,78	212,7
526,137	128,44
526,494	168,23
526,851	123,76
527,208	105,03
527,565	137,8
527,922	182,27
528,279	200,99
528,635	105,03
528,992	81,63
529,349	144,82
529,705	137,8
530,062	109,71
530,419	175,25
530,775	189,29
531,131	212,7
531,488	126,1
531,844	140,14
532,201	109,71
532,557	154,18
532,913	158,86
533,269	182,27
533,626	147,16
533,982	130,78
534,338	149,5
534,694	135,46
535,05	95,67
535,406	151,84
535,762	161,2
536,117	184,61
536,473	133,12
536,829	137,8
537,185	112,05
537,54	179,93
537,896	126,1
538,252	203,33
538,607	151,84
538,963	184,61
539,318	133,12
539,674	170,57
540,029	51,2
540,384	154,18
540,74	126,1
541,095	137,8
541,45	142,48
541,805	130,78
542,16	95,67
542,516	151,84
542,871	114,39
543,226	142,48
543,581	198,65
543,935	182,27
544,29	114,39
544,645	200,99
545	156,52
545,355	83,97
545,709	93,33
546,064	158,86
546,419	168,23
546,773	212,7
547,128	168,23
547,482	137,8
547,837	212,7
548,191	76,95
548,545	140,14
548,9	154,18
549,254	184,61
549,608	133,12
549,962	109,71
550,316	93,33
550,67	41,84
551,024	177,59
551,378	109,71
551,732	208,02
552,086	147,16
552,44	135,46
552,794	252,49
553,148	130,78
553,501	100,35
553,855	144,82
554,209	186,95
554,562	126,1
554,916	198,65
555,27	177,59
555,623	198,65
555,976	112,05
556,33	200,99
556,683	130,78
557,036	151,84
557,39	135,46
557,743	116,73
558,096	109,71
558,449	168,23
558,802	184,61
559,155	133,12
559,508	170,57
559,861	179,93
560,214	196,31
560,567	90,99
560,92	107,37
561,273	172,91
561,625	154,18
561,978	137,8
562,331	175,25
562,683	102,69
563,036	147,16
563,388	189,29
563,741	137,8
564,093	182,27
564,446	158,86
564,798	198,65
565,15	140,14
565,503	175,25
565,855	135,46
566,207	189,29
566,559	151,84
566,911	128,44
567,263	121,42
567,615	133,12
567,967	116,73
568,319	121,42
568,671	126,1
569,023	130,78
569,374	161,2
569,726	142,48
570,078	170,57
570,429	25,45
570,781	210,36
571,133	86,31
571,484	147,16
571,836	179,93
572,187	184,61
572,538	100,35
572,89	86,31
573,241	105,03
573,592	161,2
573,943	158,86
574,295	128,44
574,646	100,35
574,997	105,03
575,348	135,46
575,699	130,78
576,05	90,99
576,401	116,73
576,751	128,44
577,102	175,25
577,453	135,46
577,804	208,02
578,154	182,27
578,505	72,26
578,856	100,35
579,206	133,12
579,557	158,86
579,907	172,91
580,258	88,65
580,608	140,14
580,958	208,02
581,308	130,78
581,659	186,95
582,009	128,44
582,359	179,93
582,709	161,2
583,059	140,14
583,409	95,67
583,759	193,97
584,109	102,69
584,459	151,84
584,809	168,23
585,159	137,8
585,508	112,05
585,858	126,1
586,208	175,25
586,557	170,57
586,907	149,5
587,256	135,46
587,606	208,02
587,955	177,59
588,305	144,82
588,654	119,07
589,003	79,29
589,353	140,14
589,702	224,4
590,051	62,9
590,4	149,5
590,749	156,52
591,098	126,1
591,447	208,02
591,796	200,99
592,145	114,39
592,494	98,01
592,843	98,01
593,192	170,57
593,54	144,82
593,889	93,33
594,238	254,83
594,586	83,97
594,935	137,8
595,283	158,86
595,632	147,16
595,98	107,37
596,329	116,73
596,677	165,89
597,025	217,38
597,374	170,57
597,722	107,37
598,07	140,14
598,418	114,39
598,766	156,52
599,114	109,71
599,462	128,44
599,81	186,95
600,158	161,2
600,506	102,69
600,854	177,59
601,201	144,82
601,549	182,27
601,897	175,25
602,244	116,73
602,592	135,46
602,939	100,35
603,287	135,46
603,634	126,1
603,982	81,63
604,329	114,39
604,676	168,23
605,024	137,8
605,371	140,14
605,718	186,95
606,065	165,89
606,412	95,67
606,759	205,67
607,106	123,76
607,453	130,78
607,8	126,1
608,147	156,52
608,494	163,54
608,841	83,97
609,187	184,61
609,534	142,48
609,881	69,92
610,227	151,84
610,574	46,52
610,92	102,69
611,267	156,52
611,613	151,84
611,96	140,14
612,306	172,91
612,652	208,02
612,999	74,6
613,345	175,25
613,691	156,52
614,037	165,89
614,383	222,06
614,729	179,93
615,075	144,82
615,421	135,46
615,767	193,97
616,113	191,63
616,459	168,23
616,804	144,82
617,15	163,54
617,496	151,84
617,841	86,31
618,187	88,65
618,533	107,37
618,878	133,12
619,223	116,73
619,569	119,07
619,914	154,18
620,26	121,42
620,605	177,59
620,95	140,14
621,295	203,33
621,64	140,14
621,985	154,18
622,33	189,29
622,675	191,63
623,02	184,61
623,365	154,18
623,71	179,93
624,055	175,25
624,4	100,35
624,744	161,2
625,089	147,16
625,434	133,12
625,778	133,12
626,123	133,12
626,467	112,05
626,812	137,8
627,156	161,2
627,501	130,78
627,845	107,37
628,189	128,44
628,533	133,12
628,878	186,95
629,222	161,2
629,566	168,23
629,91	156,52
630,254	140,14
630,598	121,42
630,942	140,14
631,286	119,07
631,63	114,39
631,973	90,99
632,317	140,14
632,661	205,67
633,004	140,14
633,348	107,37
633,692	126,1
634,035	191,63
634,379	184,61
634,722	147,16
635,065	205,67
635,409	156,52
635,752	184,61
636,095	170,57
636,438	144,82
636,782	161,2
637,125	175,25
637,468	172,91
637,811	86,31
638,154	208,02
638,497	142,48
638,84	102,69
639,182	119,07
639,525	121,42
639,868	133,12
640,211	109,71
640,553	165,89
640,896	147,16
641,239	231,42
641,581	121,42
641,924	179,93
642,266	144,82
642,608	165,89
642,951	147,16
643,293	151,84
643,635	83,97
643,978	123,76
644,32	165,89
644,662	161,2
645,004	135,46
645,346	112,05
645,688	58,22
646,03	161,2
646,372	168,23
646,714	161,2
647,055	170,57
647,397	156,52
647,739	179,93
648,081	172,91
648,422	121,42
648,764	186,95
649,105	154,18
649,447	158,86
649,788	154,18
650,13	212,7
650,471	112,05
650,812	147,16
651,153	156,52
651,495	144,82
651,836	144,82
652,177	74,6
652,518	144,82
652,859	156,52
653,2	168,23
653,541	74,6
653,882	163,54
654,223	175,25
654,564	116,73
654,904	142,48
655,245	144,82
655,586	142,48
655,926	98,01
656,267	130,78
656,607	86,31
656,948	105,03
657,288	156,52
657,629	163,54
657,969	128,44
658,309	172,91
658,65	142,48
658,99	119,07
659,33	147,16
659,67	196,31
660,01	184,61
660,35	133,12
660,69	170,57
661,03	142,48
661,37	112,05
661,71	140,14
662,05	119,07
662,39	130,78
662,729	137,8
663,069	114,39
663,409	144,82
663,748	165,89
664,088	184,61
664,427	98,01
664,767	151,84
665,106	123,76
665,445	121,42
665,785	151,84
666,124	208,02
666,463	95,67
666,802	112,05
667,142	112,05
667,481	208,02
667,82	142,48
668,159	154,18
668,498	151,84
668,837	144,82
669,175	116,73
669,514	163,54
669,853	245,46
670,192	205,67
670,53	168,23
670,869	130,78
671,208	144,82
671,546	149,5
671,885	135,46
672,223	175,25
672,561	142,48
672,9	158,86
673,238	130,78
673,576	163,54
673,915	168,23
674,253	105,03
674,591	147,16
674,929	170,57
675,267	179,93
675,605	147,16
675,943	179,93
676,281	184,61
676,619	154,18
676,956	100,35
677,294	154,18
677,632	161,2
677,97	147,16
678,307	151,84
678,645	140,14
678,982	112,05
679,32	161,2
679,657	165,89
679,995	93,33
680,332	182,27
680,669	142,48
681,006	137,8
681,344	205,67
681,681	196,31
682,018	196,31
682,355	210,36
682,692	137,8
683,029	90,99
683,366	200,99
683,703	142,48
684,04	212,7
684,376	140,14
684,713	133,12
685,05	175,25
685,387	135,46
685,723	156,52
686,06	156,52
686,396	119,07
686,733	161,2
687,069	161,2
687,406	65,24
687,742	142,48
688,078	100,35
688,414	72,26
688,751	179,93
689,087	119,07
689,423	135,46
689,759	193,97
690,095	158,86
690,431	154,18
690,767	147,16
691,103	114,39
691,439	158,86
691,774	250,14
692,11	140,14
692,446	186,95
692,781	147,16
693,117	102,69
693,453	60,56
693,788	128,44
694,124	86,31
694,459	182,27
694,794	135,46
695,13	222,06
695,465	165,89
695,8	170,57
696,135	142,48
696,471	182,27
696,806	69,92
697,141	130,78
697,476	231,42
697,811	140,14
698,146	161,2
698,48	123,76
698,815	149,5
699,15	142,48
699,485	100,35
699,819	126,1
700,154	144,82
700,489	151,84
700,823	182,27
701,158	168,23
701,492	51,2
701,826	208,02
702,161	151,84
702,495	168,23
702,829	177,59
703,164	186,95
703,498	168,23
703,832	149,5
704,166	135,46
704,5	161,2
704,834	114,39
705,168	93,33
705,502	142,48
705,836	172,91
706,169	172,91
706,503	156,52
706,837	137,8
707,171	133,12
707,504	177,59
707,838	147,16
708,171	135,46
708,505	184,61
708,838	112,05
709,172	140,14
709,505	114,39
709,838	172,91
710,171	135,46
710,505	182,27
710,838	112,05
711,171	69,92
711,504	151,84
711,837	217,38
712,17	137,8
712,503	144,82
712,836	142,48
713,169	128,44
713,501	182,27
713,834	100,35
714,167	114,39
714,499	109,71
714,832	205,67
715,165	140,14
715,497	142,48
715,83	198,65
716,162	116,73
716,494	175,25
716,827	151,84
717,159	168,23
717,491	175,25
717,823	109,71
718,155	137,8
718,488	123,76
718,82	109,71
719,152	44,18
719,484	137,8
719,815	144,82
720,147	55,88
720,479	151,84
720,811	123,76
721,143	172,91
721,474	109,71
721,806	163,54
722,137	107,37
722,469	140,14
722,8	140,14
723,132	144,82
723,463	133,12
723,795	210,36
724,126	172,91
724,457	144,82
724,788	189,29
725,119	156,52
725,451	20,77
725,782	100,35
726,113	130,78
726,444	203,33
726,775	165,89
727,105	172,91
727,436	135,46
727,767	95,67
728,098	191,63
728,428	114,39
728,759	198,65
729,09	105,03
729,42	112,05
729,751	175,25
730,081	140,14
730,412	126,1
730,742	142,48
731,072	83,97
731,403	137,8
731,733	163,54
732,063	156,52
732,393	112,05
732,723	186,95
733,053	158,86
733,383	128,44
733,713	142,48
734,043	88,65
734,373	93,33
734,703	161,2
735,032	158,86
735,362	203,33
735,692	163,54
736,021	154,18
736,351	196,31
736,68	154,18
737,01	130,78
737,339	81,63
737,669	158,86
737,998	100,35
738,327	121,42
738,657	208,02
738,986	135,46
739,315	175,25
739,644	67,58
739,973	179,93
740,302	191,63
740,631	112,05
740,96	172,91
741,289	156,52
741,618	156,52
741,946	179,93
742,275	116,73
742,604	116,73
742,932	177,59
743,261	107,37
743,589	158,86
743,918	130,78
744,246	154,18
744,575	182,27
744,903	151,84
745,231	163,54
745,56	128,44
745,888	128,44
746,216	179,93
746,544	147,16
746,872	170,57
747,2	165,89
747,528	142,48
747,856	128,44
748,184	158,86
748,512	151,84
748,84	135,46
749,167	170,57
749,495	105,03
749,823	116,73
750,15	128,44
750,478	149,5
750,805	137,8
751,133	142,48
751,46	133,12
751,788	130,78
752,115	170,57
752,442	119,07
752,769	200,99
753,096	149,5
753,424	184,61
753,751	168,23
754,078	140,14
754,405	142,48
754,732	168,23
755,059	119,07
755,385	151,84
755,712	147,16
756,039	109,71
756,366	98,01
756,692	135,46
757,019	154,18
757,345	140,14
757,672	151,84
757,998	88,65
758,325	198,65
758,651	154,18
758,977	175,25
759,304	116,73
759,63	163,54
759,956	193,97
760,282	140,14
760,608	189,29
760,934	151,84
761,26	168,23
761,586	130,78
761,912	116,73
762,238	126,1
762,564	98,01
762,89	168,23
763,215	205,67
763,541	154,18
763,867	170,57
764,192	149,5
764,518	100,35
764,843	121,42
765,169	144,82
765,494	165,89
765,819	142,48
766,145	149,5
766,47	142,48
766,795	165,89
767,12	121,42
767,445	121,42
767,77	88,65
768,095	210,36
768,42	116,73
768,745	156,52
769,07	88,65
769,395	123,76
769,719	135,46
770,044	98,01
770,369	149,5
770,693	154,18
771,018	212,7
771,343	196,31
771,667	170,57
771,991	51,2
772,316	149,5
772,64	243,12
772,964	114,39
773,289	189,29
773,613	126,1
773,937	170,57
774,261	130,78
774,585	165,89
774,909	119,07
775,233	149,5
775,557	191,63
775,881	144,82
776,205	163,54
776,528	191,63
776,852	156,52
777,176	161,2
777,499	119,07
777,823	88,65
778,146	161,2
778,47	154,18
778,793	133,12
779,117	151,84
779,44	172,91
779,763	154,18
780,087	121,42
780,41	182,27
780,733	112,05
781,056	123,76
781,379	123,76
781,702	119,07
782,025	210,36
782,348	102,69
782,671	88,65
782,993	144,82
783,316	156,52
783,639	58,22
783,962	179,93
784,284	67,58
784,607	121,42
784,929	130,78
785,252	191,63
785,574	147,16
785,897	114,39
786,219	151,84
786,541	114,39
786,863	95,67
787,186	154,18
787,508	158,86
787,83	128,44
788,152	156,52
788,474	121,42
788,796	128,44
789,118	105,03
789,44	177,59
789,761	126,1
790,083	100,35
790,405	130,78
790,726	119,07
791,048	196,31
791,37	163,54
791,691	149,5
792,013	123,76
792,334	215,04
792,655	79,29
792,977	126,1
793,298	140,14
793,619	142,48
793,94	198,65
794,262	116,73
794,583	175,25
794,904	158,86
795,225	135,46
795,546	119,07
795,867	107,37
796,187	161,2
796,508	121,42
796,829	81,63
797,15	205,67
797,47	151,84
797,791	128,44
798,111	156,52
798,432	231,42
798,752	137,8
799,073	133,12
799,393	128,44
799,713	149,5
800,034	109,71
800,354	140,14
800,674	163,54
800,994	95,67
801,314	182,27
801,634	158,86
801,954	158,86
802,274	172,91
802,594	191,63
802,914	179,93
803,234	130,78
803,553	177,59
803,873	175,25
804,193	137,8
804,512	116,73
804,832	196,31
805,151	126,1
805,471	179,93
805,79	165,89
806,11	128,44
806,429	112,05
806,748	126,1
807,067	112,05
807,387	79,29
807,706	144,82
808,025	119,07
808,344	119,07
808,663	44,18
808,982	137,8
809,301	133,12
809,619	95,67
809,938	112,05
810,257	135,46
810,576	142,48
810,894	128,44
811,213	140,14
811,531	144,82
811,85	123,76
812,168	149,5
812,487	123,76
812,805	126,1
813,123	107,37
813,441	163,54
813,76	165,89
814,078	95,67
814,396	93,33
814,714	198,65
815,032	154,18
815,35	184,61
815,668	259,51
815,986	83,97
816,304	151,84
816,621	130,78
816,939	156,52
817,257	182,27
817,574	184,61
817,892	184,61
818,209	203,33
818,527	147,16
818,844	215,04
819,162	119,07
819,479	196,31
819,796	168,23
820,113	163,54
820,431	83,97
820,748	175,25
821,065	161,2
821,382	121,42
821,699	107,37
822,016	114,39
822,333	177,59
822,65	147,16
822,966	156,52
823,283	175,25
823,6	128,44
823,916	149,5
824,233	170,57
824,55	121,42
824,866	168,23
825,183	119,07
825,499	163,54
825,815	112,05
826,132	105,03
826,448	128,44
826,764	79,29
827,08	177,59
827,396	123,76
827,712	121,42
828,028	121,42
828,344	189,29
828,66	144,82
828,976	154,18
829,292	156,52
829,608	154,18
829,923	140,14
830,239	154,18
830,555	135,46
830,87	158,86
831,186	168,23
831,501	198,65
831,817	161,2
832,132	119,07
832,448	112,05
832,763	123,76
833,078	100,35
833,393	165,89
833,708	151,84
834,023	151,84
834,339	119,07
834,653	144,82
834,968	158,86
835,283	128,44
835,598	158,86
835,913	186,95
836,228	121,42
836,542	182,27
836,857	130,78
837,172	151,84
837,486	126,1
837,801	184,61
838,115	98,01
838,43	135,46
838,744	149,5
839,058	144,82
839,373	76,95
839,687	102,69
840,001	93,33
840,315	93,33
840,629	44,18
840,943	133,12
841,257	100,35
841,571	126,1
841,885	182,27
842,199	126,1
842,512	130,78
842,826	126,1
843,14	72,26
843,454	161,2
843,767	151,84
844,081	121,42
844,394	170,57
844,708	74,6
845,021	119,07
845,334	198,65
845,648	165,89
845,961	203,33
846,274	128,44
846,587	203,33
846,9	137,8
847,213	114,39
847,526	109,71
847,839	161,2
848,152	133,12
848,465	98,01
848,778	137,8
849,09	123,76
849,403	130,78
849,716	142,48
850,028	205,67
850,341	154,18
850,653	189,29
850,966	69,92
851,278	121,42
851,591	147,16
851,903	154,18
852,215	158,86
852,527	126,1
852,84	172,91
853,152	151,84
853,464	116,73
853,776	102,69
854,088	135,46
854,4	137,8
854,712	172,91
855,023	144,82
855,335	116,73
855,647	130,78
855,958	161,2
856,27	123,76
856,582	123,76
856,893	177,59
857,205	140,14
857,516	184,61
857,827	151,84
858,139	158,86
858,45	142,48
858,761	90,99
859,072	156,52
859,384	100,35
859,695	102,69
860,006	186,95
860,317	105,03
860,628	142,48
860,938	121,42
861,249	128,44
861,56	119,07
861,871	46,52
862,181	86,31
862,492	149,5
862,803	191,63
863,113	147,16
863,424	144,82
863,734	151,84
864,045	121,42
864,355	163,54
864,665	140,14
864,975	123,76
865,286	193,97
865,596	149,5
865,906	161,2
866,216	95,67
866,526	90,99
866,836	154,18
867,146	130,78
867,456	172,91
867,765	144,82
868,075	154,18
868,385	161,2
868,694	88,65
869,004	130,78
869,314	168,23
869,623	168,23
869,933	203,33
870,242	165,89
870,551	128,44
870,861	142,48
871,17	116,73
871,479	200,99
871,788	128,44
872,097	140,14
872,406	168,23
872,715	119,07
873,024	154,18
873,333	112,05
873,642	112,05
873,951	156,52
874,26	128,44
874,568	163,54
874,877	121,42
875,186	123,76
875,494	102,69
875,803	170,57
876,111	93,33
876,42	126,1
876,728	133,12
877,036	137,8
877,344	161,2
877,653	182,27
877,961	189,29
878,269	189,29
878,577	142,48
878,885	161,2
879,193	175,25
879,501	114,39
879,809	158,86
880,117	168,23
880,424	121,42
880,732	163,54
881,04	189,29
881,347	172,91
881,655	203,33
881,962	184,61
882,27	135,46
882,577	126,1
882,885	130,78
883,192	165,89
883,499	179,93
883,807	128,44
884,114	179,93
884,421	158,86
884,728	196,31
885,035	193,97
885,342	126,1
885,649	83,97
885,956	105,03
886,262	121,42
886,569	147,16
886,876	112,05
887,183	158,86
887,489	163,54
887,796	90,99
888,102	142,48
888,409	163,54
888,715	121,42
889,022	128,44
889,328	193,97
889,634	149,5
889,94	163,54
890,247	186,95
890,553	147,16
890,859	133,12
891,165	119,07
891,471	109,71
891,777	126,1
892,083	149,5
892,388	161,2
892,694	144,82
893	149,5
893,306	93,33
893,611	163,54
893,917	135,46
894,222	102,69
894,528	105,03
894,833	193,97
895,139	144,82
895,444	163,54
895,749	114,39
896,054	170,57
896,36	151,84
896,665	142,48
896,97	149,5
897,275	168,23
897,58	196,31
897,885	191,63
898,19	102,69
898,494	175,25
898,799	179,93
899,104	168,23
899,409	123,76
899,713	135,46
900,018	165,89
900,322	121,42
900,627	177,59
900,931	137,8
901,236	161,2
901,54	191,63
901,844	175,25
902,149	186,95
902,453	158,86
902,757	186,95
903,061	165,89
903,365	163,54
903,669	177,59
903,973	172,91
904,277	119,07
904,581	189,29
904,884	126,1
905,188	88,65
905,492	163,54
905,795	140,14
906,099	88,65
906,402	90,99
906,706	123,76
907,009	135,46
907,313	210,36
907,616	83,97
907,919	135,46
908,223	109,71
908,526	140,14
908,829	140,14
909,132	135,46
909,435	175,25
909,738	135,46
910,041	93,33
910,344	90,99
910,647	156,52
910,949	133,12
911,252	121,42
911,555	133,12
911,857	102,69
912,16	158,86
912,462	65,24
912,765	116,73
913,067	156,52
913,37	88,65
913,672	137,8
913,974	156,52
914,276	107,37
914,579	69,92
914,881	196,31
915,183	149,5
915,485	170,57
915,787	119,07
916,089	182,27
916,391	100,35
916,692	116,73
916,994	186,95
917,296	154,18
917,598	98,01
917,899	133,12
918,201	208,02
918,502	90,99
918,804	95,67
919,105	88,65
919,406	193,97
919,708	184,61
920,009	158,86
920,31	135,46
920,611	198,65
920,913	151,84
921,214	175,25
921,515	149,5
921,816	158,86
922,116	179,93
922,417	168,23
922,718	156,52
923,019	107,37
923,32	156,52
923,62	154,18
923,921	205,67
924,221	88,65
924,522	83,97
924,822	128,44
925,123	74,6
925,423	144,82
925,723	95,67
926,024	114,39
926,324	128,44
926,624	142,48
926,924	119,07
927,224	100,35
927,524	137,8
927,824	100,35
928,124	93,33
928,424	200,99
928,724	105,03
929,023	62,9
929,323	119,07
929,623	165,89
929,922	154,18
930,222	98,01
930,521	177,59
930,821	109,71
931,12	135,46
931,42	149,5
931,719	79,29
932,018	158,86
932,317	123,76
932,616	172,91
932,916	175,25
933,215	95,67
933,514	177,59
933,813	102,69
934,111	161,2
934,41	140,14
934,709	114,39
935,008	114,39
935,306	105,03
935,605	184,61
935,904	224,4
936,202	140,14
936,501	86,31
936,799	163,54
937,097	123,76
937,396	189,29
937,694	142,48
937,992	128,44
938,29	163,54
938,589	30,13
938,887	186,95
939,185	112,05
939,483	112,05
939,781	198,65
940,078	147,16
940,376	189,29
940,674	100,35
940,972	215,04
941,269	114,39
941,567	200,99
941,865	168,23
942,162	200,99
942,46	163,54
942,757	163,54
943,054	123,76
943,352	156,52
943,649	186,95
943,946	128,44
944,243	116,73
944,54	193,97
944,837	205,67
945,134	149,5
945,431	140,14
945,728	130,78
946,025	182,27
946,322	158,86
946,619	177,59
946,915	144,82
947,212	208,02
947,509	198,65
947,805	165,89
948,102	86,31
948,398	114,39
948,695	112,05
948,991	67,58
949,287	236,1
949,583	161,2
949,88	95,67
950,176	98,01
950,472	170,57
950,768	184,61
951,064	140,14
951,36	149,5
951,656	191,63
951,951	198,65
952,247	126,1
952,543	179,93
952,839	128,44
953,134	200,99
953,43	126,1
953,725	168,23
954,021	193,97
954,316	135,46
954,612	133,12
954,907	90,99
955,202	121,42
955,497	123,76
955,793	156,52
956,088	177,59
956,383	172,91
956,678	172,91
956,973	140,14
957,268	191,63
957,563	135,46
957,857	189,29
958,152	102,69
958,447	119,07
958,741	90,99
959,036	112,05
959,331	74,6
959,625	142,48
959,92	81,63
960,214	193,97
960,508	144,82
960,803	172,91
961,097	119,07
961,391	114,39
961,685	172,91
961,979	158,86
962,273	130,78
962,567	208,02
962,861	161,2
963,155	147,16
963,449	81,63
963,743	81,63
964,036	179,93
964,33	205,67
964,624	112,05
964,917	196,31
965,211	93,33
965,504	168,23
965,798	130,78
966,091	74,6
966,384	179,93
966,678	149,5
966,971	165,89
967,264	196,31
967,557	144,82
967,85	98,01
968,143	86,31
968,436	72,26
968,729	126,1
969,022	121,42
969,315	198,65
969,608	128,44
969,9	154,18
970,193	142,48
970,486	182,27
970,778	156,52
971,071	151,84
971,363	212,7
971,655	182,27
971,948	86,31
972,24	144,82
972,532	142,48
972,824	135,46
973,117	175,25
973,409	109,71
973,701	130,78
973,993	100,35
974,285	196,31
974,577	161,2
974,868	189,29
975,16	62,9
975,452	163,54
975,744	74,6
976,035	128,44
976,327	114,39
976,618	135,46
976,91	151,84
977,201	88,65
977,492	107,37
977,784	98,01
978,075	121,42
978,366	198,65
978,657	161,2
978,948	114,39
979,24	156,52
979,531	147,16
979,821	100,35
980,112	163,54
980,403	112,05
980,694	90,99
980,985	123,76
981,275	128,44
981,566	130,78
981,857	83,97
982,147	175,25
982,438	236,1
982,728	95,67
983,019	189,29
983,309	62,9
983,599	193,97
983,889	179,93
984,18	116,73
984,47	165,89
984,76	182,27
985,05	149,5
985,34	217,38
985,63	137,8
985,919	140,14
986,209	133,12
986,499	112,05
986,789	154,18
987,078	170,57
987,368	147,16
987,658	142,48
987,947	196,31
988,237	165,89
988,526	149,5
988,815	135,46
989,105	156,52
989,394	105,03
989,683	100,35
989,972	149,5
990,261	154,18
990,55	170,57
990,839	123,76
991,128	135,46
991,417	48,86
991,706	135,46
991,995	142,48
992,283	236,1
992,572	184,61
992,861	90,99
993,149	168,23
993,438	210,36
993,726	69,92
994,015	102,69
994,303	212,7
994,591	175,25
994,879	144,82
995,168	88,65
995,456	151,84
995,744	175,25
996,032	126,1
996,32	163,54
996,608	116,73
996,896	161,2
997,184	158,86
997,471	144,82
997,759	163,54
998,047	161,2
998,334	107,37
998,622	137,8
998,91	98,01
999,197	161,2
999,484	177,59
999,772	172,91
1000,059	198,65
1000,346	179,93
1000,634	158,86
1000,921	196,31
1001,208	109,71
1001,495	121,42
1001,782	189,29
1002,069	116,73
1002,356	144,82
1002,643	114,39
1002,929	135,46
1003,216	109,71
1003,503	200,99
1003,79	170,57
1004,076	200,99
1004,363	170,57
1004,649	112,05
1004,936	142,48
1005,222	163,54
1005,508	156,52
1005,795	76,95
1006,081	83,97
1006,367	107,37
1006,653	151,84
1006,939	144,82
1007,225	179,93
1007,511	123,76
1007,797	196,31
1008,083	95,67
1008,369	177,59
1008,654	90,99
1008,94	161,2
1009,226	79,29
1009,511	147,16
1009,797	121,42
1010,082	123,76
1010,368	156,52
1010,653	151,84
1010,939	156,52
1011,224	170,57
1011,509	226,74
1011,794	90,99
1012,079	114,39
1012,364	107,37
1012,649	135,46
1012,934	62,9
1013,219	170,57
1013,504	112,05
1013,789	88,65
1014,074	161,2
1014,358	126,1
1014,643	144,82
1014,928	172,91
1015,212	191,63
1015,497	144,82
1015,781	126,1
1016,066	149,5
1016,35	177,59
1016,634	81,63
1016,918	154,18
1017,203	163,54
1017,487	133,12
1017,771	98,01
1018,055	165,89
1018,339	158,86
1018,623	144,82
1018,907	179,93
1019,19	102,69
1019,474	184,61
1019,758	154,18
1020,041	126,1
1020,325	191,63
